Folder: NekoBytes-TheMissing/Projects/Proj3-Complete/data

Note: Projects/README.md
# Projects 编写任务书
- 课程大作业，应配备完善的单元测试，README 文档。
- 本项目实验环境均为 **Ubuntu 22.04**，请贡献者确保课程实验能在该环境下正确进行
- 目录下作业应确保为 Linux 环境下的 **tar.gz** 压缩格式。命名格式如下: Proj0.tar.gz, Proj1.tar.gz, ...
- 不必提供对应的解决方案。
- 大作业预计耗时 **5-8h** 为宜

## Proj1
- MyMalloc, 参考 CSAPP 与 K&R The C Programming Language
- MyMalloc调优(选做)

## Proj2
- 贪吃蛇，参考[CS61C](https://cs61c.org/su24/projects/proj1/)

## Proj3
- 简易神经网络实现分类任务

## Proj4
- 待定

File: linear_data.csv
Cement (component 1)(kg in a m^3 mixture),Blast Furnace Slag (component 2)(kg in a m^3 mixture),Fly Ash (component 3)(kg in a m^3 mixture),Water  (component 4)(kg in a m^3 mixture),Superplasticizer (component 5)(kg in a m^3 mixture),Coarse Aggregate  (component 6)(kg in a m^3 mixture),Fine Aggregate (component 7)(kg in a m^3 mixture),Age (day),"Concrete compressive strength(MPa, megapascals) "
1.0,0.0,0.0,0.321086,0.0776398,0.694767,0.20572,0.0741758,79.99
0.374429,0.317195,0.0,0.848243,0.0,0.380814,0.190667,0.0741758,45.85
0.0858447,0.582638,0.0,0.560703,0.0,0.715116,0.534119,0.244505,39.36
0.634703,0.0,0.0,0.848243,0.0,0.380814,0.190667,1.0,52.52
0.220548,0.368392,0.0,0.560703,0.0,0.515698,0.580783,0.491758,41.72
0.547945,0.105732,0.0,0.848243,0.0,0.380814,0.190667,0.244505,50.46
0.309361,0.660824,0.0,0.848243,0.0,0.380814,0.0,0.0164835,26.26
0.851598,0.0,0.0,0.848243,0.0,0.380814,0.0,1.0,41.93
0.374429,0.317195,0.0,0.848243,0.0,0.380814,0.190667,0.491758,48.7
0.737443,0.295771,0.0,0.253195,0.512422,0.148547,0.735324,0.00549451,33.4
0.737443,0.295771,0.0,0.253195,0.512422,0.148547,0.735324,0.00549451,33.4
0.594977,0.525876,0.0,0.344249,0.360248,0.417733,0.405921,0.00549451,35.3
0.737443,0.295771,0.0,0.236422,0.57764,0.392442,0.526091,0.0164835,46.8
0.494977,0.591263,0.0,0.270767,0.444099,0.148547,0.718515,0.0164835,33.4
0.769406,0.492487,0.0,0.51278,0.34472,0.243895,0.28575,0.0164835,56.1
0.623288,0.260991,0.0,0.0383387,0.726708,0.148547,1,0.0741758,56.7
0.684475,0.263495,0.0,0.204473,0.354037,0.423837,0.647516,0.0741758,68.5
0.657306,0.525876,0.0,0.192492,0.68323,0.417733,0.405921,0.0741758,74.5
0.851598,0.330551,0.0,0.473642,0.276398,0.148547,0.470396,0.151099,72.3
0.594977,0.525876,0.0,0.344249,0.360248,0.417733,0.405921,0.151099,77.3
0.594977,0.525876,0.0,0.344249,0.360248,0.417733,0.405921,0.151099,77.3
0.8379,0.326099,0.0,0.127796,1.0,0.148547,0.618414,0.247253,70.7
0.633562,0.420701,0.0,0.25639,0.493789,0.968895,0.0275966,0.247253,56.5
0.274886,0.0,0.483258,0.539137,0.139752,0.482849,0.693176,0.00549451,11.58
0.300913,0.0,0.472764,0.607827,0.142857,0.424419,0.647767,0.151099,27.66
0.202511,0.0,0.626687,0.321885,0.242236,0.840116,0.526844,0.0357143,21.06
0.25137,0.0,0.607696,0.467252,0.177019,0.74593,0.464877,0.271978,39.61
0.201598,0.0,0.625687,0.320288,0.307453,0.834593,0.523332,0.0741758,28.47
0.150685,0.11714,0.818591,0.0,0.177019,0.749128,0.466884,0.00549451,7.75
0.255023,0.272955,0.122439,0.478435,0.214286,0.769767,0.480181,0.151099,50.77
0.291553,0.0,0.590705,0.586262,0.189441,0.660174,0.410437,0.0357143,22.32
0.310731,0.0,0.470265,0.518371,0.217391,0.432849,0.634722,0.271978,44.3
0.252283,0.0,0.501749,0.299521,0.270186,0.601163,0.776719,0.0741758,31.64
0.251142,0.0,0.623688,0.297125,0.242236,0.826744,0.515554,0.00549451,19.52
0.296347,0.0,0.607696,0.416933,0.208075,0.742442,0.46287,0.151099,42.7
0.341096,0.0,0.591204,0.532748,0.198758,0.661047,0.410687,0.0357143,24.43
0.181279,0.0,0.834583,0.381789,0.236025,0.740116,0.461114,0.271978,45.37
0.15274,0.117418,0.621189,0.291534,0.335404,0.813372,0.507275,0.0741758,31.12
0.399772,0.0,0.486757,0.309904,0.36646,0.502616,0.706473,0.00549451,23.14
0.442237,0.0,0.477761,0.396965,0.276398,0.447965,0.665329,0.151099,48.72
0.335845,0.0,0.493753,0.289936,0.397516,0.543023,0.74009,0.0357143,28.68
0.343151,0.0,0.493753,0.195687,0.440994,0.543023,0.74009,0.271978,60.95
0.395205,0.0,0.606697,0.301118,0.307453,0.734302,0.460361,0.0741758,51.33
0.255023,0.0,0.873063,0.263578,0.31677,0.734012,0.457602,0.00549451,17.57
0.254566,0.0,0.870565,0.261981,0.363354,0.730523,0.455344,0.151099,51.43
0.265297,0.15192,0.618691,0.151757,0.369565,0.798547,0.498495,0.0357143,35.96
0.257763,0.149694,0.609195,0.269968,0.298137,0.620058,0.468138,0.271978,56.63
0.625571,0.0,0.0,0.741214,0.0,0.588663,0.422479,0.0741758,31.97
0.945205,0.0,0.0,0.321086,0.254658,0.0,0.521826,0.0741758,41.37
0.527397,0.0486923,0.814593,0.361022,0.555901,0.56686,0.145509,0.0741758,47.28
0.3379,0.500835,0.474763,0.297125,0.295031,0.171512,0.516809,0.0741758,67.87
0.173516,0.361157,0.592704,0.464058,0.111801,0.599709,0.383342,0.00549451,20.73
0.254566,0.0,0.870565,0.298722,0.363354,0.705233,0.446312,0.00549451,15.61
0.163242,0.139399,0.867066,0.34345,0.201863,0.596512,0.500502,0.0357143,33.01
0.143836,0.0,0.717641,0.335463,0.0,0.594767,0.769945,0.0741758,26.2
0.201598,0.0,0.625687,0.357827,0.307453,0.80814,0.514049,0.0741758,24.85
0.149315,0.361436,0.642679,0.428914,0.242236,0.596802,0.38284,0.151099,51.72
0.211644,0.0,0.502249,0.386581,0.232919,0.572674,0.772203,0.151099,43.39
0.148402,0.209794,0.834583,0.337061,0.245342,0.599709,0.441796,0.271978,56.81
0.785388,0.066778,0.394803,0.321086,0.360248,0.482558,0.296036,0.0741758,44.42
0.785388,0.066778,0.394803,0.321086,0.360248,0.482558,0.296036,0.0164835,39.3
0.650685,0.0556483,0.469765,0.28115,0.444099,0.398256,0.629704,0.00549451,22.75
0.650685,0.0556483,0.469765,0.28115,0.360248,0.398256,0.629704,0.151099,61.46
0.888128,0.0723428,0.614693,0.632588,0.121118,0.0610465,0.263422,0.00549451,29.55
0.73516,0.0612131,0.65967,0.36901,0.276398,0.0610465,0.39137,0.00549451,32.11
0.415525,0.0417362,0.704648,0.456869,0.170807,0.119186,0.519318,0.00549451,13.4
0.586758,0.0528659,0.704648,0.257188,0.338509,0.409884,0.519318,0.0164835,38.61
0.664384,0.0,0.0,0.560703,0.0,0.405814,0.480682,0.0741758,39.6
0.426941,0.0,0.0,0.560703,0.0,0.326163,0.755896,0.0164835,14.6
0.12968,0.662771,0.0,0.510383,0.0,0.696512,0.351982,0.0164835,9.62
0.271233,0.409572,0.0,0.510383,0.0,0.738372,0.37707,0.0741758,25.75
0.673516,0.0,0.0,0.510383,0.0,0.696512,0.351982,0.0164835,25.45
0.541553,0.0,0.0,0.510383,0.0,0.779651,0.402158,0.0164835,21.18
0.287671,0.951864,0.0,0.510383,0.0,0.45,0.201455,0.0164835,21.92
0.640411,0.0,0.0,0.510383,0.0,0.717442,0.364526,0.0741758,37.44
0.541096,0.0,0.0,0.600639,0.0,0.485465,0.469142,0.0357143,27.04
0.305936,0.0,0.0,0.576677,0.0,0.485465,0.730055,0.244505,21.95
0.399543,0.0,0.0,0.552716,0.0,0.485465,0.657301,0.986264,33.7
0.468037,0.0,0.0,0.56869,0.0,0.485465,0.546914,0.0741758,27.53
0.509132,0.0,0.0,0.496805,0.0,0.761628,0.47416,0.0741758,30.57
0.680365,0.0,0.0,0.520767,0.0,0.651163,0.378826,0.0164835,30.14
0.089726,0.589872,0.0,0.652556,0.0,0.496512,0.387607,0.0741758,29.89
0.223744,0.370061,0.0,0.560703,0.0,0.477907,0.532363,0.00549451,11.41
0.338356,0.464107,0.0,0.652556,0.0,0.513372,0.251129,0.0164835,19.35
0.1621,0.32276,0.0,0.560703,0.0,0.423837,0.659308,0.00549451,6.94
0.0,0.42571,0.0,0.560703,0.0,0.25,0.873056,0.0741758,17.28
0.0143836,0.451864,0.0,0.652556,0.0,0.398837,0.639739,0.00549451,2.33
0.186986,0.341124,0.0,0.652556,0.0,0.459884,0.516809,0.0164835,10.79
0.338356,0.464107,0.0,0.652556,0.0,0.513372,0.251129,0.00549451,9.73
0.205479,0.801336,0.0,0.560703,0.0,0.374419,0.306322,0.0164835,21.48
0.231735,0.849471,0.0,0.652556,0.0,0.472093,0.0903161,0.244505,51.86
0.522831,0.0,0.0,0.560703,0.0,0.651163,0.569493,0.0741758,31.74
0.310502,0.0,0.0,0.51278,0.0,0.924419,0.489212,0.0164835,12.05
0.408676,0.0,0.0,0.51278,0.0,0.880814,0.451581,0.0164835,14.5
1.0,0.0,0.0,0.408946,0.0,0.94186,0.0476668,0.0357143,59.76
0.56621,0.0,0.0,0.648562,0.0,0.502907,0.454089,0.151099,29.98
0.522831,0.0,0.0,0.560703,0.0,0.514535,0.579528,0.491758,39.0
0.541096,0.0,0.0,0.504792,0.0,0.77907,0.401405,0.0164835,21.16
0.522831,0.0,0.0,0.560703,0.0,0.226744,0.579528,0.00549451,13.52
0.563927,0.0,0.0,0.560703,0.0,0.715116,0.531862,0.986264,42.13
0.342466,0.0,0.0,0.504792,0.0,0.901163,0.476668,0.0164835,13.71
0.342466,0.0,0.0,0.51278,0.0,0.901163,0.476668,0.0164835,11.47
0.965753,0.0,0.0,0.536741,0.0,0.94186,0.0476668,0.0164835,42.42
0.456621,0.0,0.0,0.648562,0.0,0.502907,0.559458,0.0741758,21.75
0.10274,0.319978,0.444778,0.640575,0.279503,0.171512,0.589563,0.0741758,19.99
0.474886,0.397885,0.0,0.36901,0.310559,0.328488,0.526844,0.0741758,45.3
0.342466,0.269894,0.37981,0.576677,0.248447,0.0988372,0.569493,0.0741758,33.4
0.579909,0.0,0.709645,0.56869,0.341615,0.0,0.461616,0.0741758,40.87
0.447489,0.0,0.534733,0.704473,0.341615,0.229651,0.376317,0.0741758,31.87
0.363014,0.278242,0.389805,0.632588,0.279503,0.18314,0.418966,0.0741758,32.4
0.114155,0.0,0.55972,0.496805,0.248447,0.555233,0.556949,0.0741758,12.18
0.116438,0.40345,0.0,0.448882,0.248447,0.578488,0.572002,0.0741758,19.01
0.481735,0.447969,0.0,0.448882,0.310559,0.337209,0.413949,0.0741758,52.44
0.121005,0.509182,0.0,0.56869,0.279503,0.22093,0.687406,0.0741758,23.79
0.399543,0.325543,0.454773,0.552716,0.217391,0.421512,0.180632,0.0741758,43.57
0.0776256,0.450751,0.629685,0.400958,0.310559,0.354651,0.426493,0.0741758,29.07
0.107306,0.42571,0.969515,0.560703,0.248447,0.389535,0.0727546,0.0741758,24.58
0.307991,0.255147,0.357321,0.999201,0.186335,0.150872,0.25439,0.0741758,28.63
0.116667,0.40345,0.564718,0.452875,0.248447,0.584012,0.237582,0.0741758,25.56
0.365068,0.307457,0.430285,0.587859,0.15528,0.273837,0.347717,0.0741758,33.72
0.415525,0.333055,0.0,0.371406,0.223602,0.492442,0.502258,0.0741758,40.93
0.0746575,0.0,0.828086,0.466454,0.310559,0.465116,0.529102,0.0741758,13.29
0.447717,0.0,0.537231,0.333866,0.397516,0.442442,0.476668,0.0741758,35.87
0.120548,0.0,0.713643,0.571086,0.282609,0.221512,0.686653,0.0741758,9.74
0.0949772,0.0,0.874063,0.292332,0.555901,0.411919,0.62845,0.0741758,15.42
0.0910959,0.46355,0.648176,0.412939,0.338509,0.237209,0.47993,0.0741758,44.61
0.132877,0.523094,0.731634,0.65016,0.350932,0.0805233,0.290266,0.0741758,35.31
0.142009,0.0,1.0,0.474441,0.391304,0.140407,0.632213,0.0741758,15.09
0.146119,0.722593,0.0,0.490415,0.39441,0.168023,0.584044,0.0741758,37.92
0.362785,0.279633,0.391304,0.629393,0.267081,0.184593,0.420221,0.0741758,32.4